participant,block,row_type,trialIndex,stimulus,response,outcome,rt_ms,excluded_fast,lsl_time_s,hits,falseAlarms,misses,totalTargets,totalNonTargets,rt_mean_ms,rtv_ms,hit_rate,false_alarm_rate,sam_rating
113,1,trial,0,nonTarget,none,cr,,0,1705.850238,,,,126,36,,,,
113,1,trial,1,target,key,hit,423.82,0,1707.959804,,,,126,36,,,,
113,1,trial,2,target,key,hit,541.23,0,1710.064607,,,,126,36,,,,
113,1,trial,3,target,key,hit,307.82,0,1712.168958,,,,126,36,,,,
113,1,trial,4,nonTarget,key,fa,327.48,0,1714.273784,,,,126,36,,,,
113,1,trial,5,target,key,hit,335.81,0,1716.383586,,,,126,36,,,,
113,1,trial,6,target,key,hit,396.32,0,1718.489193,,,,126,36,,,,
113,1,trial,7,target,key,hit,419.77,0,1720.599276,,,,126,36,,,,
113,1,trial,8,target,key,hit,307.13,0,1722.710351,,,,126,36,,,,
113,1,trial,9,target,key,hit,334.41,0,1724.815654,,,,126,36,,,,
113,1,trial,10,target,key,hit,439.88,0,1726.919440,,,,126,36,,,,
113,1,trial,11,target,key,hit,338.23,0,1729.027383,,,,126,36,,,,
113,1,trial,12,target,key,hit,306.35,0,1731.133090,,,,126,36,,,,
113,1,trial,13,target,key,hit,366.33,0,1733.237456,,,,126,36,,,,
113,1,trial,14,nonTarget,none,cr,,0,1735.348301,,,,126,36,,,,
113,1,trial,15,target,key,hit,369.83,0,1737.454496,,,,126,36,,,,
113,1,trial,16,nonTarget,none,cr,,0,1739.561330,,,,126,36,,,,
113,1,trial,17,target,key,hit,283.78,0,1741.668950,,,,126,36,,,,
113,1,trial,18,target,key,hit,422.24,0,1743.776203,,,,126,36,,,,
113,1,trial,19,target,key,hit,389.17,0,1745.877792,,,,126,36,,,,
113,1,trial,20,target,key,hit,377.88,0,1747.982699,,,,126,36,,,,
113,1,trial,21,target,key,hit,330.57,0,1750.091517,,,,126,36,,,,
113,1,trial,22,target,key,hit,334.27,0,1752.199316,,,,126,36,,,,
113,1,trial,23,target,key,hit,416.95,0,1754.305766,,,,126,36,,,,
113,1,trial,24,nonTarget,none,cr,,0,1756.415377,,,,126,36,,,,
113,1,trial,25,target,key,hit,355.92,0,1758.522510,,,,126,36,,,,
113,1,trial,26,target,key,hit,413.57,0,1760.628548,,,,126,36,,,,
113,1,trial,27,nonTarget,none,cr,,0,1762.736647,,,,126,36,,,,
113,1,trial,28,nonTarget,none,cr,,0,1764.846295,,,,126,36,,,,
113,1,trial,29,nonTarget,none,cr,,0,1766.955106,,,,126,36,,,,
113,1,trial,30,nonTarget,none,cr,,0,1769.067099,,,,126,36,,,,
113,1,trial,31,target,key,hit,313.12,0,1771.175221,,,,126,36,,,,
113,1,trial,32,target,key,hit,398.16,0,1773.281198,,,,126,36,,,,
113,1,trial,33,target,key,hit,706.37,0,1775.384120,,,,126,36,,,,
113,1,trial,34,target,key,hit,661.59,0,1777.494691,,,,126,36,,,,
113,1,trial,35,nonTarget,none,cr,,0,1779.599623,,,,126,36,,,,
113,1,trial,36,target,key,hit,361.10,0,1781.705237,,,,126,36,,,,
113,1,trial,37,target,key,hit,363.68,0,1783.810660,,,,126,36,,,,
113,1,trial,38,target,key,hit,387.95,0,1785.920095,,,,126,36,,,,
113,1,trial,39,nonTarget,none,cr,,0,1788.030080,,,,126,36,,,,
113,1,trial,40,target,key,hit,336.11,0,1790.134461,,,,126,36,,,,
113,1,trial,41,nonTarget,none,cr,,0,1792.243250,,,,126,36,,,,
113,1,trial,42,target,key,hit,305.89,0,1794.352623,,,,126,36,,,,
113,1,trial,43,target,key,hit,628.73,0,1796.459873,,,,126,36,,,,
113,1,trial,44,target,key,hit,463.15,0,1798.567485,,,,126,36,,,,
113,1,trial,45,target,key,hit,730.22,0,1800.673116,,,,126,36,,,,
113,1,trial,46,target,key,hit,372.51,0,1802.782882,,,,126,36,,,,
113,1,trial,47,target,key,hit,343.45,0,1804.888154,,,,126,36,,,,
113,1,trial,48,target,key,hit,411.10,0,1807.000149,,,,126,36,,,,
113,1,trial,49,target,key,hit,442.18,0,1809.104668,,,,126,36,,,,
113,1,trial,50,target,key,hit,383.64,0,1811.213180,,,,126,36,,,,
113,1,trial,51,target,key,hit,421.95,0,1813.318839,,,,126,36,,,,
113,1,trial,52,target,key,hit,435.94,0,1815.425155,,,,126,36,,,,
113,1,trial,53,target,key,hit,406.57,0,1817.532903,,,,126,36,,,,
113,1,trial,54,target,key,hit,361.69,0,1819.638769,,,,126,36,,,,
113,1,trial,55,nonTarget,key,fa,263.82,0,1821.751495,,,,126,36,,,,
113,1,trial,56,nonTarget,none,cr,,0,1823.860711,,,,126,36,,,,
113,1,trial,57,target,key,hit,332.93,0,1825.969531,,,,126,36,,,,
113,1,trial,58,target,key,hit,452.30,0,1828.074771,,,,126,36,,,,
113,1,trial,59,target,key,hit,572.28,0,1830.181960,,,,126,36,,,,
113,1,trial,60,target,key,hit,325.45,0,1832.288983,,,,126,36,,,,
113,1,trial,61,target,key,hit,346.05,0,1834.397045,,,,126,36,,,,
113,1,trial,62,target,key,hit,461.29,0,1836.508710,,,,126,36,,,,
113,1,trial,63,nonTarget,key,fa,416.79,0,1838.615960,,,,126,36,,,,
113,1,trial,64,target,key,hit,456.30,0,1840.728975,,,,126,36,,,,
113,1,trial,65,nonTarget,none,cr,,0,1842.831655,,,,126,36,,,,
113,1,trial,66,target,key,hit,293.03,0,1844.940258,,,,126,36,,,,
113,1,trial,67,target,key,hit,444.40,0,1847.046033,,,,126,36,,,,
113,1,trial,68,target,key,hit,407.03,0,1849.159079,,,,126,36,,,,
113,1,trial,69,target,key,hit,402.07,0,1851.264460,,,,126,36,,,,
113,1,trial,70,target,key,hit,307.71,0,1853.371384,,,,126,36,,,,
113,1,trial,71,target,key,hit,357.61,0,1855.479004,,,,126,36,,,,
113,1,trial,72,nonTarget,key,fa,391.46,0,1857.583919,,,,126,36,,,,
113,1,trial,73,target,key,hit,914.54,0,1859.693633,,,,126,36,,,,
113,1,trial,74,nonTarget,none,cr,,0,1861.797502,,,,126,36,,,,
113,1,trial,75,target,key,hit,462.20,0,1863.909992,,,,126,36,,,,
113,1,trial,76,target,key,hit,617.80,0,1866.016979,,,,126,36,,,,
113,1,trial,77,target,key,hit,685.39,0,1868.123905,,,,126,36,,,,
113,1,trial,78,target,key,hit,472.17,0,1870.231665,,,,126,36,,,,
113,1,trial,79,target,key,hit,391.16,0,1872.340724,,,,126,36,,,,
113,1,trial,80,target,key,hit,607.76,0,1874.448301,,,,126,36,,,,
113,1,trial,81,target,key,hit,534.81,0,1876.554223,,,,126,36,,,,
113,1,trial,82,target,key,hit,962.48,0,1878.662096,,,,126,36,,,,
113,1,trial,83,target,key,hit,345.72,0,1880.772461,,,,126,36,,,,
113,1,trial,84,target,key,hit,397.80,0,1882.882964,,,,126,36,,,,
113,1,trial,85,target,key,hit,317.55,0,1884.988779,,,,126,36,,,,
113,1,trial,86,target,key,hit,401.52,0,1887.099295,,,,126,36,,,,
113,1,trial,87,target,key,hit,381.06,0,1889.204034,,,,126,36,,,,
113,1,trial,88,target,key,hit,352.08,0,1891.311383,,,,126,36,,,,
113,1,trial,89,target,key,hit,288.28,0,1893.420722,,,,126,36,,,,
113,1,trial,90,target,key,hit,301.96,0,1895.524685,,,,126,36,,,,
113,1,trial,91,target,key,hit,376.30,0,1897.631381,,,,126,36,,,,
113,1,trial,92,target,key,hit,445.68,0,1899.739844,,,,126,36,,,,
113,1,trial,93,target,key,hit,455.98,0,1901.845311,,,,126,36,,,,
113,1,trial,94,nonTarget,none,cr,,0,1903.952978,,,,126,36,,,,
113,1,trial,95,target,key,hit,277.54,0,1906.061512,,,,126,36,,,,
113,1,trial,96,target,key,hit,785.19,0,1908.168209,,,,126,36,,,,
113,1,trial,97,nonTarget,key,fa,447.08,0,1910.275395,,,,126,36,,,,
113,1,trial,98,target,key,hit,588.97,0,1912.384172,,,,126,36,,,,
113,1,trial,99,target,key,hit,409.76,0,1914.493918,,,,126,36,,,,
113,1,trial,100,target,key,hit,431.93,0,1916.601184,,,,126,36,,,,
113,1,trial,101,target,key,hit,761.78,0,1918.707328,,,,126,36,,,,
113,1,trial,102,target,key,hit,440.46,0,1920.814377,,,,126,36,,,,
113,1,trial,103,target,key,hit,462.19,0,1922.919610,,,,126,36,,,,
113,1,trial,104,target,key,hit,556.84,0,1925.027041,,,,126,36,,,,
113,1,trial,105,target,key,hit,530.18,0,1927.132297,,,,126,36,,,,
113,1,trial,106,target,key,hit,1489.43,0,1929.241663,,,,126,36,,,,
113,1,trial,107,target,key,hit,682.37,0,1931.349461,,,,126,36,,,,
113,1,trial,108,nonTarget,none,cr,,0,1933.456184,,,,126,36,,,,
113,1,trial,109,target,key,hit,327.45,0,1935.568194,,,,126,36,,,,
113,1,trial,110,nonTarget,none,cr,,0,1937.676632,,,,126,36,,,,
113,1,trial,111,target,key,hit,334.29,0,1939.789180,,,,126,36,,,,
113,1,trial,112,nonTarget,none,cr,,0,1941.895802,,,,126,36,,,,
113,1,trial,113,nonTarget,key,fa,524.14,0,1944.004064,,,,126,36,,,,
113,1,trial,114,target,key,hit,418.40,0,1946.110908,,,,126,36,,,,
113,1,trial,115,target,key,hit,379.82,0,1948.218727,,,,126,36,,,,
113,1,trial,116,target,key,hit,298.10,0,1950.330197,,,,126,36,,,,
113,1,trial,117,nonTarget,none,cr,,0,1952.436702,,,,126,36,,,,
113,1,trial,118,nonTarget,none,cr,,0,1954.548307,,,,126,36,,,,
113,1,trial,119,nonTarget,none,cr,,0,1956.655832,,,,126,36,,,,
113,1,trial,120,nonTarget,none,cr,,0,1958.762747,,,,126,36,,,,
113,1,trial,121,target,key,hit,315.31,0,1960.867327,,,,126,36,,,,
113,1,trial,122,target,key,hit,544.56,0,1962.974998,,,,126,36,,,,
113,1,trial,123,target,key,hit,501.22,0,1965.083336,,,,126,36,,,,
113,1,trial,124,nonTarget,none,cr,,0,1967.196571,,,,126,36,,,,
113,1,trial,125,target,key,hit,550.90,0,1969.302486,,,,126,36,,,,
113,1,trial,126,target,none,miss,,0,1971.415226,,,,126,36,,,,
113,1,trial,127,target,key,hit,315.22,0,1973.524792,,,,126,36,,,,
113,1,trial,128,nonTarget,none,cr,,0,1975.630861,,,,126,36,,,,
113,1,trial,129,target,key,hit,329.83,0,1977.740166,,,,126,36,,,,
113,1,trial,130,target,key,hit,382.84,0,1979.850498,,,,126,36,,,,
113,1,trial,131,target,key,hit,340.27,0,1981.955297,,,,126,36,,,,
113,1,trial,132,target,key,hit,365.30,0,1984.060970,,,,126,36,,,,
113,1,trial,133,target,key,hit,434.45,0,1986.169198,,,,126,36,,,,
113,1,trial,134,nonTarget,none,cr,,0,1988.273116,,,,126,36,,,,
113,1,trial,135,nonTarget,none,cr,,0,1990.378881,,,,126,36,,,,
113,1,trial,136,target,key,hit,417.33,0,1992.485234,,,,126,36,,,,
113,1,trial,137,target,key,hit,416.02,0,1994.591651,,,,126,36,,,,
113,1,trial,138,nonTarget,none,cr,,0,1996.702803,,,,126,36,,,,
113,1,trial,139,target,key,hit,409.03,0,1998.811975,,,,126,36,,,,
113,1,trial,140,target,key,hit,642.88,0,2000.918993,,,,126,36,,,,
113,1,trial,141,target,key,hit,1126.25,0,2003.026253,,,,126,36,,,,
113,1,trial,142,target,key,hit,391.85,0,2005.129192,,,,126,36,,,,
113,1,trial,143,target,key,hit,633.30,0,2007.236161,,,,126,36,,,,
113,1,trial,144,target,key,hit,429.93,0,2009.342793,,,,126,36,,,,
113,1,trial,145,target,key,hit,382.26,0,2011.452297,,,,126,36,,,,
113,1,trial,146,nonTarget,none,cr,,0,2013.560155,,,,126,36,,,,
113,1,trial,147,target,key,hit,459.05,0,2015.669598,,,,126,36,,,,
113,1,trial,148,target,key,hit,442.20,0,2017.780648,,,,126,36,,,,
113,1,trial,149,target,key,hit,395.39,0,2019.890486,,,,126,36,,,,
113,1,trial,150,target,key,hit,484.74,0,2021.999353,,,,126,36,,,,
113,1,trial,151,nonTarget,none,cr,,0,2024.104236,,,,126,36,,,,
113,1,trial,152,target,key,hit,445.86,0,2026.209662,,,,126,36,,,,
113,1,trial,153,target,key,hit,443.24,0,2028.319137,,,,126,36,,,,
113,1,trial,154,nonTarget,key,fa,360.66,0,2030.422952,,,,126,36,,,,
113,1,trial,155,target,none,miss,,0,2032.531174,,,,126,36,,,,
113,1,trial,156,target,key,hit,348.79,0,2034.640848,,,,126,36,,,,
113,1,trial,157,target,key,hit,539.67,0,2036.749474,,,,126,36,,,,
113,1,trial,158,target,key,hit,812.56,0,2038.858098,,,,126,36,,,,
113,1,trial,159,target,key,hit,522.40,0,2040.963581,,,,126,36,,,,
113,1,trial,160,target,none,miss,,0,2043.067283,,,,126,36,,,,
113,1,trial,161,target,key,hit,290.92,0,2045.177976,,,,126,36,,,,
113,1,sam,,,,,,,,,,,126,36,,,,,Medium
113,1,summary,,,,,,0,,123,7,3,126,36,452.08,172.64,0.976190,0.194444,
113,2,trial,0,target,key,hit,760.86,0,2057.119455,,,,126,36,,,,
113,2,trial,1,target,none,miss,,0,2059.226678,,,,126,36,,,,
113,2,trial,2,target,key,hit,398.90,0,2061.333197,,,,126,36,,,,
113,2,trial,3,target,key,hit,329.62,0,2063.441520,,,,126,36,,,,
113,2,trial,4,target,key,hit,320.19,0,2065.550106,,,,126,36,,,,
113,2,trial,5,target,key,hit,252.01,0,2067.657606,,,,126,36,,,,
113,2,trial,6,target,key,hit,299.38,0,2069.763872,,,,126,36,,,,
113,2,trial,7,target,key,hit,287.48,0,2071.873055,,,,126,36,,,,
113,2,trial,8,target,none,miss,,0,2073.980904,,,,126,36,,,,
113,2,trial,9,nonTarget,none,cr,,0,2076.091125,,,,126,36,,,,
113,2,trial,10,nonTarget,none,cr,,0,2078.199583,,,,126,36,,,,
113,2,trial,11,target,key,excludedFast,48.98,1,2080.305053,,,,126,36,,,,
113,2,trial,12,target,key,hit,320.19,0,2082.412694,,,,126,36,,,,
113,2,trial,13,target,key,hit,353.21,0,2084.520648,,,,126,36,,,,
113,2,trial,14,target,key,hit,347.50,0,2086.624679,,,,126,36,,,,
113,2,trial,15,target,key,hit,340.06,0,2088.731040,,,,126,36,,,,
113,2,trial,16,target,key,hit,282.20,0,2090.838332,,,,126,36,,,,
113,2,trial,17,target,key,hit,272.03,0,2092.947530,,,,126,36,,,,
113,2,trial,18,target,key,hit,313.32,0,2095.050965,,,,126,36,,,,
113,2,trial,19,target,key,hit,374.33,0,2097.155806,,,,126,36,,,,
113,2,trial,20,nonTarget,none,cr,,0,2099.264659,,,,126,36,,,,
113,2,trial,21,nonTarget,key,fa,387.05,0,2101.373544,,,,126,36,,,,
113,2,trial,22,target,key,hit,597.90,0,2103.482812,,,,126,36,,,,
113,2,trial,23,target,key,hit,412.84,0,2105.590865,,,,126,36,,,,
113,2,trial,24,nonTarget,none,cr,,0,2107.696145,,,,126,36,,,,
113,2,trial,25,nonTarget,none,cr,,0,2109.805353,,,,126,36,,,,
113,2,trial,26,target,key,hit,487.76,0,2111.915542,,,,126,36,,,,
113,2,trial,27,target,none,miss,,0,2114.023277,,,,126,36,,,,
113,2,trial,28,target,key,hit,567.99,0,2116.129295,,,,126,36,,,,
113,2,trial,29,target,key,hit,347.11,0,2118.239071,,,,126,36,,,,
113,2,trial,30,target,key,hit,297.73,0,2120.343164,,,,126,36,,,,
113,2,trial,31,target,key,hit,294.25,0,2122.451406,,,,126,36,,,,
113,2,trial,32,target,key,hit,263.89,0,2124.561133,,,,126,36,,,,
113,2,trial,33,nonTarget,key,fa,1055.48,0,2126.668200,,,,126,36,,,,
113,2,trial,34,nonTarget,none,cr,,0,2128.771720,,,,126,36,,,,
113,2,trial,35,nonTarget,none,cr,,0,2130.882787,,,,126,36,,,,
113,2,trial,36,target,key,hit,376.46,0,2132.991041,,,,126,36,,,,
113,2,trial,37,nonTarget,none,cr,,0,2135.097569,,,,126,36,,,,
113,2,trial,38,nonTarget,none,cr,,0,2137.204810,,,,126,36,,,,
113,2,trial,39,target,key,hit,333.47,0,2139.313897,,,,126,36,,,,
113,2,trial,40,target,key,hit,607.36,0,2141.423137,,,,126,36,,,,
113,2,trial,41,nonTarget,none,cr,,0,2143.531485,,,,126,36,,,,
113,2,trial,42,target,key,hit,533.17,0,2145.640464,,,,126,36,,,,
113,2,trial,43,target,key,hit,707.73,0,2147.752676,,,,126,36,,,,
113,2,trial,44,target,key,hit,902.62,0,2149.861144,,,,126,36,,,,
113,2,trial,45,target,key,hit,681.70,0,2151.967191,,,,126,36,,,,
113,2,trial,46,target,none,miss,,0,2154.072378,,,,126,36,,,,
113,2,trial,47,target,key,hit,263.73,0,2156.178071,,,,126,36,,,,
113,2,trial,48,nonTarget,none,cr,,0,2158.283991,,,,126,36,,,,
113,2,trial,49,target,key,hit,341.74,0,2160.395035,,,,126,36,,,,
113,2,trial,50,target,key,hit,448.36,0,2162.501147,,,,126,36,,,,
113,2,trial,51,target,key,hit,513.21,0,2164.610937,,,,126,36,,,,
113,2,trial,52,target,key,hit,529.08,0,2166.718079,,,,126,36,,,,
113,2,trial,53,target,key,hit,364.84,0,2168.824577,,,,126,36,,,,
113,2,trial,54,target,key,hit,608.98,0,2170.927861,,,,126,36,,,,
113,2,trial,55,target,key,hit,396.42,0,2173.031943,,,,126,36,,,,
113,2,trial,56,target,key,hit,286.29,0,2175.140856,,,,126,36,,,,
113,2,trial,57,target,key,hit,306.24,0,2177.247998,,,,126,36,,,,
113,2,trial,58,nonTarget,key,fa,1834.93,0,2179.355073,,,,126,36,,,,
113,2,trial,59,target,none,miss,,0,2181.458810,,,,126,36,,,,
113,2,trial,60,target,key,hit,429.02,0,2183.566196,,,,126,36,,,,
113,2,trial,61,target,key,hit,433.72,0,2185.677314,,,,126,36,,,,
113,2,trial,62,target,key,hit,415.10,0,2187.785099,,,,126,36,,,,
113,2,trial,63,nonTarget,none,cr,,0,2189.893858,,,,126,36,,,,
113,2,trial,64,nonTarget,none,cr,,0,2191.998254,,,,126,36,,,,
113,2,trial,65,target,key,hit,306.15,0,2194.104330,,,,126,36,,,,
113,2,trial,66,target,key,hit,336.36,0,2196.209797,,,,126,36,,,,
113,2,trial,67,target,key,hit,300.17,0,2198.322100,,,,126,36,,,,
113,2,trial,68,target,key,hit,335.08,0,2200.431596,,,,126,36,,,,
113,2,trial,69,nonTarget,none,cr,,0,2202.540399,,,,126,36,,,,
113,2,trial,70,target,key,hit,292.54,0,2204.647694,,,,126,36,,,,
113,2,trial,71,target,key,hit,483.03,0,2206.756528,,,,126,36,,,,
113,2,trial,72,target,key,hit,1471.86,0,2208.862257,,,,126,36,,,,
113,2,trial,73,target,key,hit,399.11,0,2210.969775,,,,126,36,,,,
113,2,trial,74,target,key,hit,310.67,0,2213.078469,,,,126,36,,,,
113,2,trial,75,target,key,hit,470.58,0,2215.182103,,,,126,36,,,,
113,2,trial,76,target,key,hit,412.96,0,2217.290103,,,,126,36,,,,
113,2,trial,77,nonTarget,none,cr,,0,2219.400250,,,,126,36,,,,
113,2,trial,78,target,key,hit,359.99,0,2221.510883,,,,126,36,,,,
113,2,trial,79,target,key,hit,417.42,0,2223.617663,,,,126,36,,,,
113,2,trial,80,target,key,hit,482.54,0,2225.722977,,,,126,36,,,,
113,2,trial,81,target,key,hit,317.26,0,2227.831840,,,,126,36,,,,
113,2,trial,82,target,key,hit,352.66,0,2229.936129,,,,126,36,,,,
113,2,trial,83,nonTarget,key,fa,396.67,0,2232.043583,,,,126,36,,,,
113,2,trial,84,target,key,hit,1126.28,0,2234.144524,,,,126,36,,,,
113,2,trial,85,target,key,hit,393.74,0,2236.250792,,,,126,36,,,,
113,2,trial,86,target,key,hit,409.85,0,2238.361088,,,,126,36,,,,
113,2,trial,87,nonTarget,none,cr,,0,2240.467161,,,,126,36,,,,
113,2,trial,88,target,key,hit,452.76,0,2242.572066,,,,126,36,,,,
113,2,trial,89,target,key,hit,609.74,0,2244.677135,,,,126,36,,,,
113,2,trial,90,target,key,hit,453.19,0,2246.784509,,,,126,36,,,,
113,2,trial,91,target,key,hit,761.60,0,2248.896420,,,,126,36,,,,
113,2,trial,92,nonTarget,none,cr,,0,2251.005749,,,,126,36,,,,
113,2,trial,93,target,key,hit,447.81,0,2253.113997,,,,126,36,,,,
113,2,trial,94,target,key,hit,363.83,0,2255.219810,,,,126,36,,,,
113,2,trial,95,target,key,hit,366.33,0,2257.331585,,,,126,36,,,,
113,2,trial,96,target,key,hit,607.24,0,2259.439183,,,,126,36,,,,
113,2,trial,97,target,key,hit,676.88,0,2261.549126,,,,126,36,,,,
113,2,trial,98,target,key,hit,442.44,0,2263.653996,,,,126,36,,,,
113,2,trial,99,target,key,hit,621.15,0,2265.762688,,,,126,36,,,,
113,2,trial,100,target,key,hit,705.44,0,2267.871274,,,,126,36,,,,
113,2,trial,101,target,key,hit,461.06,0,2269.979096,,,,126,36,,,,
113,2,trial,102,target,key,hit,523.32,0,2272.084166,,,,126,36,,,,
113,2,trial,103,nonTarget,none,cr,,0,2274.194122,,,,126,36,,,,
113,2,trial,104,target,key,hit,244.75,0,2276.300038,,,,126,36,,,,
113,2,trial,105,target,key,hit,368.10,0,2278.403298,,,,126,36,,,,
113,2,trial,106,target,key,hit,407.47,0,2280.508954,,,,126,36,,,,
113,2,trial,107,target,key,hit,401.86,0,2282.619189,,,,126,36,,,,
113,2,trial,108,target,key,hit,416.99,0,2284.724368,,,,126,36,,,,
113,2,trial,109,target,key,hit,359.74,0,2286.830120,,,,126,36,,,,
113,2,trial,110,target,none,miss,,0,2288.935353,,,,126,36,,,,
113,2,trial,111,target,key,hit,390.87,0,2291.041756,,,,126,36,,,,
113,2,trial,112,target,key,hit,314.09,0,2293.149470,,,,126,36,,,,
113,2,trial,113,nonTarget,none,cr,,0,2295.259814,,,,126,36,,,,
113,2,trial,114,target,key,hit,236.15,0,2297.367146,,,,126,36,,,,
113,2,trial,115,target,key,hit,538.76,0,2299.473992,,,,126,36,,,,
113,2,trial,116,target,key,hit,551.64,0,2301.586755,,,,126,36,,,,
113,2,trial,117,nonTarget,key,fa,633.06,0,2303.697495,,,,126,36,,,,
113,2,trial,118,target,key,hit,552.49,0,2305.805103,,,,126,36,,,,
113,2,trial,119,target,key,excludedFast,62.13,1,2307.907816,,,,126,36,,,,
113,2,trial,120,target,key,hit,448.55,0,2310.014983,,,,126,36,,,,
113,2,trial,121,target,key,hit,601.87,0,2312.121885,,,,126,36,,,,
113,2,trial,122,nonTarget,none,cr,,0,2314.229930,,,,126,36,,,,
113,2,trial,123,nonTarget,none,cr,,0,2316.337890,,,,126,36,,,,
113,2,trial,124,nonTarget,none,cr,,0,2318.443895,,,,126,36,,,,
113,2,trial,125,target,key,hit,389.59,0,2320.553643,,,,126,36,,,,
113,2,trial,126,target,key,hit,291.20,0,2322.659941,,,,126,36,,,,
113,2,trial,127,target,key,hit,361.51,0,2324.764756,,,,126,36,,,,
113,2,trial,128,nonTarget,key,fa,336.43,0,2326.868136,,,,126,36,,,,
113,2,trial,129,target,key,hit,316.22,0,2328.973414,,,,126,36,,,,
113,2,trial,130,nonTarget,none,cr,,0,2331.082591,,,,126,36,,,,
113,2,trial,131,target,key,hit,299.99,0,2333.190086,,,,126,36,,,,
113,2,trial,132,nonTarget,none,cr,,0,2335.295799,,,,126,36,,,,
113,2,trial,133,target,key,hit,267.76,0,2337.406057,,,,126,36,,,,
113,2,trial,134,nonTarget,none,cr,,0,2339.517604,,,,126,36,,,,
113,2,trial,135,target,key,hit,337.89,0,2341.627594,,,,126,36,,,,
113,2,trial,136,target,none,miss,,0,2343.737475,,,,126,36,,,,
113,2,trial,137,target,key,hit,267.15,0,2345.847183,,,,126,36,,,,
113,2,trial,138,target,none,miss,,0,2347.954654,,,,126,36,,,,
113,2,trial,139,nonTarget,key,fa,665.71,0,2350.061329,,,,126,36,,,,
113,2,trial,140,target,key,hit,344.36,0,2352.167093,,,,126,36,,,,
113,2,trial,141,target,none,miss,,0,2354.276620,,,,126,36,,,,
113,2,trial,142,target,key,hit,625.79,0,2356.385927,,,,126,36,,,,
113,2,trial,143,target,key,hit,573.85,0,2358.494710,,,,126,36,,,,
113,2,trial,144,target,key,hit,546.94,0,2360.605377,,,,126,36,,,,
113,2,trial,145,target,key,hit,564.82,0,2362.711784,,,,126,36,,,,
113,2,trial,146,nonTarget,key,fa,369.75,0,2364.821031,,,,126,36,,,,
113,2,trial,147,target,key,hit,327.76,0,2366.931040,,,,126,36,,,,
113,2,trial,148,nonTarget,none,cr,,0,2369.040174,,,,126,36,,,,
113,2,trial,149,target,key,hit,474.79,0,2371.146324,,,,126,36,,,,
113,2,trial,150,target,key,hit,469.06,0,2373.254118,,,,126,36,,,,
113,2,trial,151,target,key,hit,365.48,0,2375.364087,,,,126,36,,,,
113,2,trial,152,target,key,hit,458.25,0,2377.469888,,,,126,36,,,,
113,2,trial,153,target,key,hit,726.62,0,2379.576419,,,,126,36,,,,
113,2,trial,154,target,key,hit,1337.34,0,2381.681891,,,,126,36,,,,
113,2,trial,155,target,none,miss,,0,2383.791294,,,,126,36,,,,
113,2,trial,156,target,key,hit,733.52,0,2385.896678,,,,126,36,,,,
113,2,trial,157,nonTarget,none,cr,,0,2388.004000,,,,126,36,,,,
113,2,trial,158,target,key,hit,389.53,0,2390.111679,,,,126,36,,,,
113,2,trial,159,target,key,hit,489.93,0,2392.213679,,,,126,36,,,,
113,2,trial,160,target,none,miss,,0,2394.318096,,,,126,36,,,,
113,2,trial,161,nonTarget,none,cr,,0,2396.428295,,,,126,36,,,,
113,2,sam,,,,,,,,,,,126,36,,,,,Medium-Low
113,2,summary,,,,,,2,,113,8,11,126,36,453.66,197.43,0.896825,0.222222,
